Folder: charts-backend/static/uploads

File: Nishant_Bharwani_20250413_121742.csv
Temperature,Frequency,Storage Modulus
30,0.1,365.92
30,0.127,373.97
30,0.16,382.16
30,0.203,390.28
30,0.257,398.25
30,0.326,406.08
30,0.412,413.78
30,0.522,421.38
30,0.661,428.82
30,0.838,436.16
30,1.06,443.29
30,1.34,450.29
30,1.7,457.08
30,2.15,463.71
30,2.73,470.04
30,3.46,476.19
30,4.38,482.12
30,5.54,487.84
30,7.02,493.2
30,8.89,499.05
40,0.1,287.76
40,0.127,292.59
40,0.16,299.71
40,0.203,307.25
40,0.257,314.8
40,0.326,322.2
40,0.412,329.42
40,0.522,336.52
40,0.661,343.53
40,0.838,350.47
40,1.06,357.33
40,1.34,364.08
40,1.7,370.78
40,2.15,377.35
40,2.73,383.75
40,3.46,390.12
40,4.38,396.33
40,5.54,402.12
40,7.02,408.52
40,8.89,414.34
50,0.1,216.11
50,0.127,220.5
50,0.16,227.01
50,0.203,233.72
50,0.257,240.34
50,0.326,246.75
50,0.412,253.06
50,0.522,259.59
50,0.661,265.75
50,0.838,271.86
50,1.06,277.96
50,1.34,284.04
50,1.7,290.07
50,2.15,296.1
50,2.73,301.78
50,3.46,307.81
50,4.38,313.78
50,5.54,319.94
50,7.02,325.89
50,8.89,331.84
60,0.1,161.33
60,0.127,165.66
60,0.16,171.37
60,0.203,177.05
60,0.257,182.63
60,0.326,187.88
60,0.412,193.14
60,0.522,198.31
60,0.661,203.44
60,0.838,208.58
60,1.06,213.72
60,1.34,218.87
60,1.7,224.06
60,2.15,229.26
60,2.73,234.6
60,3.46,239.89
60,4.38,245.17
60,5.54,250.48
60,7.02,255.88
60,8.89,261.08
70,0.1,116.36
70,0.127,120.12
70,0.16,124.97
70,0.203,129.95
70,0.257,134.74
70,0.326,139.37
70,0.412,143.9
70,0.522,148.29
70,0.661,152.64
70,0.838,156.95
70,1.06,161.28
70,1.34,165.58
70,1.7,169.92
70,2.15,174.28
70,2.73,178.65
70,3.46,183.09
70,4.38,187.56
70,5.54,192.13
70,7.02,196.82
70,8.89,201.36
80,0.1,79.973
80,0.127,82.826
80,0.16,86.651
80,0.203,90.632
80,0.257,94.584
80,0.326,98.438
80,0.412,102.25
80,0.522,106
80,0.661,109.7
80,0.838,113.39
80,1.06,117.05
80,1.34,120.72
80,1.7,124.38
80,2.15,128.06
80,2.73,131.74
80,3.46,135.45
80,4.38,139.24
80,5.54,143.1
80,7.02,147.09
80,8.89,150.96
90,0.1,53.114
90,0.127,55.027
90,0.16,57.667
90,0.203,60.511
90,0.257,63.349
90,0.326,66.219
90,0.412,69.073
90,0.522,71.949
90,0.661,74.867
90,0.838,77.816
90,1.06,80.806
90,1.34,83.799
90,1.7,86.835
90,2.15,89.89
90,2.73,92.972
90,3.46,96.065
90,4.38,99.24
90,5.54,102.5
90,7.02,105.9
90,8.89,109.15
100,0.1,34.826
100,0.127,35.975
100,0.16,37.681
100,0.203,39.496
100,0.257,41.38
100,0.326,43.279
100,0.412,45.204
100,0.522,47.165
100,0.661,49.214
100,0.838,51.318
100,1.06,53.478
100,1.34,55.702
100,1.7,57.984
100,2.15,60.335
100,2.73,62.73
100,3.46,65.195
100,4.38,67.741
100,5.54,70.387
100,7.02,73.203
100,8.89,75.893
110,0.1,22.017
110,0.127,22.664
110,0.16,23.767
110,0.203,24.908
110,0.257,26.084
110,0.326,27.268
110,0.412,28.455
110,0.522,29.683
110,0.661,30.968
110,0.838,32.317
110,1.06,33.736
110,1.34,35.222
110,1.7,36.768
110,2.15,38.385
110,2.73,40.078
110,3.46,41.866
110,4.38,43.752
110,5.54,45.764
110,7.02,47.985
110,8.89,50.098
120,0.1,10.251
120,0.127,10.034
120,0.16,10.524
120,0.203,11.18
120,0.257,11.851
120,0.326,12.52
120,0.412,13.187
120,0.522,13.863
120,0.661,14.569
120,0.838,15.311
120,1.06,16.081
120,1.34,16.895
120,1.7,17.752
120,2.15,18.661
120,2.73,19.629
120,3.46,20.67
120,4.38,21.81
120,5.54,23.093
120,7.02,24.59
120,8.89,26.005
120,10,26.937

File: Test_User_2_20250419_154839.csv
Temperature,Frequency,Storage Modulus,Loss Modulus
30,0.1,435.43,56.581
30,0.129,443.97,56.059
30,0.166,452.52,55.37
30,0.214,461,54.727
30,0.276,469.26,53.97
30,0.355,477.51,53.164
30,0.458,485.58,52.199
30,0.59,493.53,51.118
30,0.761,501.29,49.896
30,0.981,508.81,48.606
30,1.26,516.11,47.196
30,1.63,523.14,45.714
30,2.1,529.93,44.165
30,2.7,536.46,42.559
30,3.49,542.69,40.926
30,4.49,548.66,39.299
30,5.79,554.36,37.691
30,7.46,559.88,36.126
30,9.61,565.27,34.691
40,0.1,342.68,51.552
40,0.129,351.14,51.021
40,0.166,359.41,50.846
40,0.214,367.09,50.79
40,0.276,375.08,50.589
40,0.355,382.91,50.355
40,0.458,390.62,50.074
40,0.59,398.31,49.589
40,0.761,405.95,49.031
40,0.981,413.47,48.342
40,1.26,420.89,47.547
40,1.63,428.15,46.631
40,2.1,435.28,45.607
40,2.7,442.23,44.488
40,3.49,449,43.275
40,4.49,455.59,41.985
40,5.79,462.01,40.622
40,7.46,468.27,39.206
40,9.61,474.41,37.731
50,0.1,269.37,45.428
50,0.129,276.78,45.044
50,0.166,283.85,44.923
50,0.214,290.7,45.083
50,0.276,297.55,45.197
50,0.355,304.38,45.324
50,0.458,311.27,45.4
50,0.59,318.12,45.435
50,0.761,325.02,45.37
50,0.981,331.94,45.219
50,1.26,338.82,44.975
50,1.63,345.68,44.622
50,2.1,352.5,44.167
50,2.7,359.25,43.603
50,3.49,365.92,42.93
50,4.49,372.52,42.163
50,5.79,379.03,41.291
50,7.46,385.52,40.328
50,9.61,391.98,39.247
60,0.1,210.65,40.232
60,0.129,216.96,39.712
60,0.166,223.14,39.62
60,0.214,229,39.659
60,0.276,234.91,39.781
60,0.355,240.78,39.924
60,0.458,246.66,40.111
60,0.59,252.6,40.3
60,0.761,258.6,40.462
60,0.981,264.65,40.594
60,1.26,270.74,40.683
60,1.63,276.86,40.703
60,2.1,283.02,40.654
60,2.7,289.19,40.522
60,3.49,295.37,40.306
60,4.49,301.55,39.998
60,5.79,307.74,39.594
60,7.46,313.98,39.082
60,9.61,320.29,38.452
70,0.1,157.5,35.773
70,0.129,163.52,35.325
70,0.166,168.9,35.232
70,0.214,174.26,35.217
70,0.276,179.4,35.242
70,0.355,184.55,35.317
70,0.458,189.69,35.419
70,0.59,194.85,35.565
70,0.761,200.03,35.702
70,0.981,205.25,35.858
70,1.26,210.53,36.017
70,1.63,215.85,36.165
70,2.1,221.22,36.29
70,2.7,226.65,36.38
70,3.49,232.14,36.421
70,4.49,237.7,36.387
70,5.79,243.32,36.311
70,7.46,249.04,36.161
70,9.61,254.91,35.862
80,0.1,110.59,29.934
80,0.129,115.66,29.925
80,0.166,120.38,30.105
80,0.214,124.97,30.317
80,0.276,129.58,30.529
80,0.355,134.11,30.724
80,0.458,138.65,30.877
80,0.59,143.19,31.033
80,0.761,147.79,31.208
80,0.981,152.36,31.364
80,1.26,156.98,31.533
80,1.63,161.63,31.701
80,2.1,166.34,31.879
80,2.7,171.09,32.051
80,3.49,175.93,32.202
80,4.49,180.85,32.332
80,5.79,185.87,32.426
80,7.46,191.06,32.458
80,9.61,196.43,32.391
90,0.1,72.462,22.033
90,0.129,76.294,22.573
90,0.166,79.911,23.13
90,0.214,83.562,23.609
90,0.276,87.188,24.109
90,0.355,90.897,24.524
90,0.458,94.635,24.888
90,0.59,98.405,25.225
90,0.761,102.22,25.516
90,0.981,106.06,25.797
90,1.26,109.94,26.057
90,1.63,113.85,26.303
90,2.1,117.82,26.558
90,2.7,121.84,26.802
90,3.49,125.94,27.047
90,4.49,130.13,27.281
90,5.79,134.47,27.5
90,7.46,138.94,27.679
90,9.61,143.71,27.802
100,0.1,44.465,14.578
100,0.129,46.999,15.137
100,0.166,49.384,15.772
100,0.214,51.898,16.411
100,0.276,54.431,16.99
100,0.355,57.071,17.595
100,0.458,59.81,18.084
100,0.59,62.605,18.587
100,0.761,65.471,19.025
100,0.981,68.4,19.425
100,1.26,71.372,19.785
100,1.63,74.404,20.12
100,2.1,77.478,20.423
100,2.7,80.62,20.718
100,3.49,83.825,20.999
100,4.49,87.13,21.27
100,5.79,90.568,21.525
100,7.46,94.196,21.762
100,9.61,98.124,21.958
110,0.1,25.825,8.5988
110,0.129,27.36,9.1035
110,0.166,28.845,9.6574
110,0.214,30.411,10.25
110,0.276,32.041,10.803
110,0.355,33.729,11.355
110,0.458,35.522,11.908
110,0.59,37.403,12.429
110,0.761,39.356,12.917
110,0.981,41.384,13.388
110,1.26,43.492,13.824
110,1.63,45.679,14.233
110,2.1,47.924,14.601
110,2.7,50.25,14.947
110,3.49,52.65,15.258
110,4.49,55.151,15.543
110,5.79,57.795,15.8
110,7.46,60.629,16.034
110,9.61,63.78,16.192
120,0.1,12.204,4.0544
120,0.129,12.982,4.3582
120,0.166,13.747,4.6504
120,0.214,14.517,5.0196
120,0.276,15.353,5.3361
120,0.355,16.237,5.6735
120,0.458,17.157,6.0159
120,0.59,18.125,6.3651
120,0.761,19.153,6.7056
120,0.981,20.236,7.0356
120,1.26,21.384,7.3648
120,1.63,22.587,7.6828
120,2.1,23.847,7.971
120,2.7,25.188,8.2771
120,3.49,26.61,8.5539
120,4.49,28.143,8.813
120,5.79,29.813,9.0489
120,7.46,31.735,9.2592
120,9.61,33.97,9.4327
120,10.9,34.737,9.2317